************************************************************
  HL Scan of (1) Internal mercury lamp
************************************************************
Integration time is 0.2294 seconds per sample
dh190217Tamanrasset 22.79-5.529 2.705615pr865
************************************************************
Dead Time -------------------------  2.8E-08 
Number of Cycles Used -------------  4 
Starting Wavelength (Angstroms) ---  3331 
Final Wavelength (Angstoms) -------  3351 
Wavelength Increment (Angstroms) --  .25 
Filter Wheel #1 Position ---------- (1) Ground quartz diffuser (ND=2.32)
Filter Wheel #2 Position ---------- (0) Clear Aperture



************************************************************
HL scan start time = 04:09:11
Dark Count =  2.2 


Time (GMT)  Wavelength (Ang)  Step Number  Raw Counts  Counts/Second

  249.69        3331.00           6581           6.00        16.56
  249.91        3331.25           6585           8.00        25.28
  249.94        3331.50           6589           8.00        25.28
  249.96        3331.75           6593           8.00        25.28
  249.99        3332.00           6596           0.00         2.00
  250.02        3332.25           6600           4.00         7.85
  250.05        3332.50           6604           6.00        16.56
  250.07        3332.75           6608           0.00         2.00
  250.10        3333.00           6611           0.00         2.00
  250.13        3333.25           6615           7.00        20.92
  250.15        3333.50           6619           5.00        12.21
  250.18        3333.75           6623           8.00        25.28
  250.21        3334.00           6626           3.00         3.49
  250.24        3334.25           6630           7.00        20.92
  250.26        3334.50           6634           5.00        12.21
  250.29        3334.75           6638           8.00        25.28
  250.32        3335.00           6641           8.00        25.28
  250.34        3335.25           6645           4.00         7.85
  250.37        3335.50           6649           6.00        16.56
  250.40        3335.75           6653           3.00         3.49
  250.43        3336.00           6656           8.00        25.28
  250.45        3336.25           6660           5.00        12.21
  250.48        3336.50           6664           8.00        25.28
  250.51        3336.75           6668           3.00         3.49
  250.53        3337.00           6671           8.00        25.28
  250.56        3337.25           6675           8.00        25.28
  250.59        3337.50           6679           0.00         2.00
  250.62        3337.75           6683           8.00        25.28
  250.64        3338.00           6686           0.00         2.00
  250.67        3338.25           6690           1.00         2.00
  250.70        3338.50           6694           8.00        25.28
  250.72        3338.75           6698           6.00        16.56
  250.75        3339.00           6701           0.00         2.00
  250.78        3339.25           6705           0.00         2.00
  250.81        3339.50           6709           8.00        25.28
  250.83        3339.75           6713           0.00         2.00
  250.86        3340.00           6716           0.00         2.00
  250.89        3340.25           6720           0.00         2.00
  250.91        3340.50           6724           8.00        25.28
  250.94        3340.75           6728           7.00        20.92
  250.97        3341.00           6731           1.00         2.00
  251.00        3341.25           6735           8.00        25.28
  251.02        3341.50           6739           5.00        12.21
  251.05        3341.75           6743           8.00        25.28
  251.08        3342.00           6746           8.00        25.28
  251.10        3342.25           6750           7.00        20.92
  251.13        3342.50           6754           8.00        25.28
  251.16        3342.75           6758           0.00         2.00
  251.19        3343.00           6761           8.00        25.28
  251.21        3343.25           6765           8.00        25.28
  251.24        3343.50           6769           5.00        12.21
  251.27        3343.75           6773           4.00         7.85
  251.29        3344.00           6776           8.00        25.28
  251.32        3344.25           6780           8.00        25.28
  251.35        3344.50           6784           8.00        25.28
  251.37        3344.75           6788           4.00         7.85
  251.40        3345.00           6791           2.00         2.00
  251.43        3345.25           6795           8.00        25.28
  251.46        3345.50           6799           3.00         3.49
  251.48        3345.75           6803           6.00        16.56
  251.51        3346.00           6806           8.00        25.28
  251.54        3346.25           6810           0.00         2.00
  251.57        3346.50           6814           1.00         2.00
  251.59        3346.75           6818           7.00        20.92
  251.62        3347.00           6821           2.00         2.00
  251.65        3347.25           6825           8.00        25.28
  251.67        3347.50           6829           5.00        12.21
  251.70        3347.75           6833           8.00        25.28
  251.73        3348.00           6836           6.00        16.56
  251.76        3348.25           6840           0.00         2.00
  251.78        3348.50           6844           8.00        25.28
  251.81        3348.75           6848           8.00        25.28
  251.84        3349.00           6851           0.00         2.00
  251.86        3349.25           6855           4.00         7.85
  251.89        3349.50           6859           8.00        25.28
  251.92        3349.75           6863           7.00        20.92
  251.94        3350.00           6867           1.00         2.00
  251.97        3350.25           6870           4.00         7.85
  252.00        3350.50           6874           0.00         2.00
  252.03        3350.75           6878           0.00         2.00
  252.05        3351.00           6882           6.00        16.56
HL scan finished at 04:12:41
end
