************************************************************
  HL Scan of (1) Internal mercury lamp
************************************************************
Integration time is 0.2294 seconds per sample
dh100417Tamanrasset 22.79-5.529 2.741303pr865
************************************************************
Dead Time -------------------------  2.8E-08 
Number of Cycles Used -------------  4 
Starting Wavelength (Angstroms) ---  3331 
Final Wavelength (Angstoms) -------  3351 
Wavelength Increment (Angstroms) --  .25 
Filter Wheel #1 Position ---------- (1) Ground quartz diffuser (ND=2.32)
Filter Wheel #2 Position ---------- (0) Clear Aperture



************************************************************
HL scan start time = 03:24:01
Dark Count =  4 


Time (GMT)  Wavelength (Ang)  Step Number  Raw Counts  Counts/Second

  204.54        3331.00           6581           0.00         2.00
  204.75        3331.25           6585           8.00        17.44
  204.78        3331.50           6589           0.00         2.00
  204.81        3331.75           6593           8.00        17.44
  204.84        3332.00           6596           8.00        17.44
  204.86        3332.25           6600           8.00        17.44
  204.89        3332.50           6604           3.00         2.00
  204.92        3332.75           6608           6.00         8.72
  204.95        3333.00           6611           4.00         2.00
  204.97        3333.25           6615           0.00         2.00
  205.00        3333.50           6619           8.00        17.44
  205.03        3333.75           6623           4.00         2.00
  205.05        3334.00           6626           0.00         2.00
  205.08        3334.25           6630           6.00         8.72
  205.11        3334.50           6634           5.00         4.36
  205.14        3334.75           6638           8.00        17.44
  205.16        3335.00           6641           4.00         2.00
  205.19        3335.25           6645           8.00        17.44
  205.22        3335.50           6649           0.00         2.00
  205.25        3335.75           6653           1.00         2.00
  205.27        3336.00           6656           1.00         2.00
  205.30        3336.25           6660           8.00        17.44
  205.33        3336.50           6664           2.00         2.00
  205.35        3336.75           6668           8.00        17.44
  205.38        3337.00           6671           8.00        17.44
  205.41        3337.25           6675           7.00        13.08
  205.44        3337.50           6679           3.00         2.00
  205.46        3337.75           6683           0.00         2.00
  205.49        3338.00           6686           5.00         4.36
  205.52        3338.25           6690           1.00         2.00
  205.55        3338.50           6694           0.00         2.00
  205.57        3338.75           6698           8.00        17.44
  205.60        3339.00           6701           8.00        17.44
  205.63        3339.25           6705           3.00         2.00
  205.65        3339.50           6709           8.00        17.44
  205.68        3339.75           6713           4.00         2.00
  205.71        3340.00           6716           8.00        17.44
  205.74        3340.25           6720           4.00         2.00
  205.76        3340.50           6724           3.00         2.00
  205.79        3340.75           6728           4.00         2.00
  205.82        3341.00           6731           5.00         4.36
  205.85        3341.25           6735           1.00         2.00
  205.87        3341.50           6739           2.00         2.00
  205.90        3341.75           6743           0.00         2.00
  205.93        3342.00           6746           0.00         2.00
  205.95        3342.25           6750           7.00        13.08
  205.98        3342.50           6754           4.00         2.00
  206.01        3342.75           6758           0.00         2.00
  206.04        3343.00           6761           0.00         2.00
  206.06        3343.25           6765           4.00         2.00
  206.09        3343.50           6769           0.00         2.00
  206.12        3343.75           6773           4.00         2.00
  206.14        3344.00           6776           6.00         8.72
  206.17        3344.25           6780           0.00         2.00
  206.20        3344.50           6784           0.00         2.00
  206.23        3344.75           6788           6.00         8.72
  206.25        3345.00           6791           0.00         2.00
  206.28        3345.25           6795           6.00         8.72
  206.31        3345.50           6799           0.00         2.00
  206.34        3345.75           6803           0.00         2.00
  206.36        3346.00           6806           8.00        17.44
  206.39        3346.25           6810           4.00         2.00
  206.42        3346.50           6814           6.00         8.72
  206.44        3346.75           6818           0.00         2.00
  206.47        3347.00           6821           8.00        17.44
  206.50        3347.25           6825           8.00        17.44
  206.53        3347.50           6829           7.00        13.08
  206.55        3347.75           6833           0.00         2.00
  206.58        3348.00           6836           8.00        17.44
  206.61        3348.25           6840           8.00        17.44
  206.63        3348.50           6844           4.00         2.00
  206.66        3348.75           6848           5.00         4.36
  206.69        3349.00           6851           4.00         2.00
  206.72        3349.25           6855           8.00        17.44
  206.74        3349.50           6859           0.00         2.00
  206.77        3349.75           6863           0.00         2.00
  206.80        3350.00           6867           2.00         2.00
  206.83        3350.25           6870           4.00         2.00
  206.85        3350.50           6874           8.00        17.44
  206.88        3350.75           6878           8.00        17.44
  206.91        3351.00           6882           8.00        17.44
HL scan finished at 03:27:32
end
