************************************************************
  HL Scan of (1) Internal mercury lamp
************************************************************
Integration time is 0.2294 seconds per sample
dh040517Tamanrasset 22.79-5.529 3.077792pr865
************************************************************
Dead Time -------------------------  2.8E-08 
Number of Cycles Used -------------  4 
Starting Wavelength (Angstroms) ---  3331 
Final Wavelength (Angstoms) -------  3351 
Wavelength Increment (Angstroms) --  .25 
Filter Wheel #1 Position ---------- (1) Ground quartz diffuser (ND=2.32)
Filter Wheel #2 Position ---------- (0) Clear Aperture



************************************************************
HL scan start time = 03:03:46
Dark Count =  4.8 


Time (GMT)  Wavelength (Ang)  Step Number  Raw Counts  Counts/Second

  184.28        3331.00           6581           0.00         2.00
  184.50        3331.25           6585           6.00         5.23
  184.53        3331.50           6589           8.00        13.95
  184.56        3331.75           6593           5.00         2.00
  184.58        3332.00           6596           6.00         5.23
  184.61        3332.25           6600           2.00         2.00
  184.64        3332.50           6604           0.00         2.00
  184.67        3332.75           6608           4.00         2.00
  184.69        3333.00           6611           2.00         2.00
  184.72        3333.25           6615           6.00         5.23
  184.75        3333.50           6619           5.00         2.00
  184.77        3333.75           6623           4.00         2.00
  184.80        3334.00           6626           7.00         9.59
  184.83        3334.25           6630           6.00         5.23
  184.86        3334.50           6634           4.00         2.00
  184.88        3334.75           6638           2.00         2.00
  184.91        3335.00           6641           5.00         2.00
  184.94        3335.25           6645           8.00        13.95
  184.96        3335.50           6649           2.00         2.00
  184.99        3335.75           6653           5.00         2.00
  185.02        3336.00           6656           8.00        13.95
  185.04        3336.25           6660           7.00         9.59
  185.07        3336.50           6664           7.00         9.59
  185.10        3336.75           6668           2.00         2.00
  185.13        3337.00           6671           4.00         2.00
  185.15        3337.25           6675           4.00         2.00
  185.18        3337.50           6679           7.00         9.59
  185.21        3337.75           6683           8.00        13.95
  185.23        3338.00           6686           3.00         2.00
  185.26        3338.25           6690           3.00         2.00
  185.29        3338.50           6694           8.00        13.95
  185.32        3338.75           6698           5.00         2.00
  185.34        3339.00           6701           0.00         2.00
  185.37        3339.25           6705           2.00         2.00
  185.40        3339.50           6709           5.00         2.00
  185.42        3339.75           6713           6.00         5.23
  185.45        3340.00           6716           1.00         2.00
  185.48        3340.25           6720           4.00         2.00
  185.51        3340.50           6724           7.00         9.59
  185.53        3340.75           6728           9.00        18.31
  185.56        3341.00           6731           4.00         2.00
  185.59        3341.25           6735           5.00         2.00
  185.61        3341.50           6739           2.00         2.00
  185.64        3341.75           6743           7.00         9.59
  185.67        3342.00           6746           5.00         2.00
  185.70        3342.25           6750           7.00         9.59
  185.72        3342.50           6754           3.00         2.00
  185.75        3342.75           6758           0.00         2.00
  185.78        3343.00           6761           7.00         9.59
  185.80        3343.25           6765           0.00         2.00
  185.83        3343.50           6769           5.00         2.00
  185.86        3343.75           6773           8.00        13.95
  185.89        3344.00           6776           0.00         2.00
  185.91        3344.25           6780           8.00        13.95
  185.94        3344.50           6784           3.00         2.00
  185.97        3344.75           6788           7.00         9.59
  185.99        3345.00           6791           4.00         2.00
  186.02        3345.25           6795           5.00         2.00
  186.05        3345.50           6799           2.00         2.00
  186.07        3345.75           6803           7.00         9.59
  186.10        3346.00           6806           2.00         2.00
  186.13        3346.25           6810           6.00         5.23
  186.16        3346.50           6814           4.00         2.00
  186.18        3346.75           6818           2.00         2.00
  186.21        3347.00           6821           7.00         9.59
  186.24        3347.25           6825           5.00         2.00
  186.26        3347.50           6829           5.00         2.00
  186.29        3347.75           6833           1.00         2.00
  186.32        3348.00           6836           6.00         5.23
  186.35        3348.25           6840           8.00        13.95
  186.37        3348.50           6844           1.00         2.00
  186.40        3348.75           6848           5.00         2.00
  186.43        3349.00           6851           6.00         5.23
  186.46        3349.25           6855           5.00         2.00
  186.48        3349.50           6859           8.00        13.95
  186.51        3349.75           6863           1.00         2.00
  186.54        3350.00           6867           8.00        13.95
  186.56        3350.25           6870           3.00         2.00
  186.59        3350.50           6874           7.00         9.59
  186.62        3350.75           6878           6.00         5.23
  186.65        3351.00           6882           4.00         2.00
HL scan finished at 03:07:16
end
