************************************************************
  HL Scan of (1) Internal mercury lamp
************************************************************
Integration time is 0.2294 seconds per sample
dh260517Tamanrasset 22.79-5.529 3.11348pr865
************************************************************
Dead Time -------------------------  2.8E-08 
Number of Cycles Used -------------  4 
Starting Wavelength (Angstroms) ---  3331 
Final Wavelength (Angstoms) -------  3351 
Wavelength Increment (Angstroms) --  .25 
Filter Wheel #1 Position ---------- (1) Ground quartz diffuser (ND=2.32)
Filter Wheel #2 Position ---------- (0) Clear Aperture



************************************************************
HL scan start time = 02:53:56
Dark Count =  5.4 


Time (GMT)  Wavelength (Ang)  Step Number  Raw Counts  Counts/Second

  174.45        3331.00           6581           4.00         2.00
  174.67        3331.25           6585           7.00         6.97
  174.69        3331.50           6589           4.00         2.00
  174.72        3331.75           6593           6.00         2.62
  174.75        3332.00           6596           7.00         6.97
  174.78        3332.25           6600           6.00         2.62
  174.80        3332.50           6604           6.00         2.62
  174.83        3332.75           6608           7.00         6.97
  174.86        3333.00           6611           4.00         2.00
  174.88        3333.25           6615           7.00         6.97
  174.91        3333.50           6619           2.00         2.00
  174.94        3333.75           6623           4.00         2.00
  174.97        3334.00           6626           5.00         2.00
  174.99        3334.25           6630           6.00         2.62
  175.02        3334.50           6634           8.00        11.33
  175.05        3334.75           6638           6.00         2.62
  175.07        3335.00           6641           3.00         2.00
  175.10        3335.25           6645           4.00         2.00
  175.13        3335.50           6649           6.00         2.62
  175.16        3335.75           6653           3.00         2.00
  175.18        3336.00           6656           4.00         2.00
  175.21        3336.25           6660           1.00         2.00
  175.24        3336.50           6664           6.00         2.62
  175.26        3336.75           6668           5.00         2.00
  175.29        3337.00           6671           5.00         2.00
  175.32        3337.25           6675           6.00         2.62
  175.35        3337.50           6679           3.00         2.00
  175.37        3337.75           6683           7.00         6.97
  175.40        3338.00           6686           7.00         6.97
  175.43        3338.25           6690           3.00         2.00
  175.45        3338.50           6694           3.00         2.00
  175.48        3338.75           6698           8.00        11.33
  175.51        3339.00           6701           7.00         6.97
  175.54        3339.25           6705           3.00         2.00
  175.56        3339.50           6709           3.00         2.00
  175.59        3339.75           6713           0.00         2.00
  175.62        3340.00           6716           6.00         2.62
  175.64        3340.25           6720           2.00         2.00
  175.67        3340.50           6724           3.00         2.00
  175.70        3340.75           6728           6.00         2.62
  175.72        3341.00           6731           5.00         2.00
  175.75        3341.25           6735           5.00         2.00
  175.78        3341.50           6739           2.00         2.00
  175.81        3341.75           6743           6.00         2.62
  175.83        3342.00           6746           8.00        11.33
  175.86        3342.25           6750           6.00         2.62
  175.89        3342.50           6754           2.00         2.00
  175.91        3342.75           6758           8.00        11.33
  175.94        3343.00           6761           7.00         6.97
  175.97        3343.25           6765           6.00         2.62
  176.00        3343.50           6769           3.00         2.00
  176.02        3343.75           6773           8.00        11.33
  176.05        3344.00           6776           1.00         2.00
  176.08        3344.25           6780           3.00         2.00
  176.10        3344.50           6784           8.00        11.33
  176.13        3344.75           6788           5.00         2.00
  176.16        3345.00           6791           3.00         2.00
  176.19        3345.25           6795           3.00         2.00
  176.21        3345.50           6799           6.00         2.62
  176.24        3345.75           6803           8.00        11.33
  176.27        3346.00           6806           3.00         2.00
  176.29        3346.25           6810           8.00        11.33
  176.32        3346.50           6814           0.00         2.00
  176.35        3346.75           6818           7.00         6.97
  176.38        3347.00           6821           1.00         2.00
  176.40        3347.25           6825           3.00         2.00
  176.43        3347.50           6829           5.00         2.00
  176.46        3347.75           6833           5.00         2.00
  176.48        3348.00           6836           6.00         2.62
  176.51        3348.25           6840           5.00         2.00
  176.54        3348.50           6844           1.00         2.00
  176.57        3348.75           6848           3.00         2.00
  176.59        3349.00           6851           8.00        11.33
  176.62        3349.25           6855           5.00         2.00
  176.65        3349.50           6859           7.00         6.97
  176.67        3349.75           6863           6.00         2.62
  176.70        3350.00           6867           6.00         2.62
  176.73        3350.25           6870           7.00         6.97
  176.76        3350.50           6874           7.00         6.97
  176.78        3350.75           6878           6.00         2.62
  176.81        3351.00           6882           0.00         2.00
HL scan finished at 02:57:26
end
