************************************************************
  HL Scan of (1) Internal mercury lamp
************************************************************
Integration time is 0.2294 seconds per sample
dh150617Tamanrasset 22.79-5.529 3.11348pr865
************************************************************
Dead Time -------------------------  2.8E-08 
Number of Cycles Used -------------  4 
Starting Wavelength (Angstroms) ---  3331 
Final Wavelength (Angstoms) -------  3351 
Wavelength Increment (Angstroms) --  .25 
Filter Wheel #1 Position ---------- (1) Ground quartz diffuser (ND=2.32)
Filter Wheel #2 Position ---------- (0) Clear Aperture



************************************************************
HL scan start time = 02:52:43
Dark Count =  5.9 


Time (GMT)  Wavelength (Ang)  Step Number  Raw Counts  Counts/Second

  173.23        3331.00           6581           7.00         4.80
  173.45        3331.25           6585           6.00         2.00
  173.47        3331.50           6589           9.00        13.51
  173.50        3331.75           6593           6.00         2.00
  173.53        3332.00           6596           3.00         2.00
  173.56        3332.25           6600           7.00         4.80
  173.58        3332.50           6604           2.00         2.00
  173.61        3332.75           6608           3.00         2.00
  173.64        3333.00           6611           7.00         4.80
  173.66        3333.25           6615           8.00         9.15
  173.69        3333.50           6619           0.00         2.00
  173.72        3333.75           6623           5.00         2.00
  173.75        3334.00           6626           4.00         2.00
  173.77        3334.25           6630           0.00         2.00
  173.80        3334.50           6634           6.00         2.00
  173.83        3334.75           6638           6.00         2.00
  173.85        3335.00           6641           2.00         2.00
  173.88        3335.25           6645           6.00         2.00
  173.91        3335.50           6649           7.00         4.80
  173.93        3335.75           6653           5.00         2.00
  173.96        3336.00           6656           3.00         2.00
  173.99        3336.25           6660           6.00         2.00
  174.02        3336.50           6664           7.00         4.80
  174.04        3336.75           6668           3.00         2.00
  174.07        3337.00           6671           2.00         2.00
  174.10        3337.25           6675           7.00         4.80
  174.12        3337.50           6679           8.00         9.15
  174.15        3337.75           6683           4.00         2.00
  174.18        3338.00           6686           3.00         2.00
  174.21        3338.25           6690           8.00         9.15
  174.23        3338.50           6694           3.00         2.00
  174.26        3338.75           6698           6.00         2.00
  174.29        3339.00           6701           3.00         2.00
  174.31        3339.25           6705           0.00         2.00
  174.34        3339.50           6709           7.00         4.80
  174.37        3339.75           6713           3.00         2.00
  174.40        3340.00           6716           8.00         9.15
  174.42        3340.25           6720           6.00         2.00
  174.45        3340.50           6724           1.00         2.00
  174.48        3340.75           6728           4.00         2.00
  174.50        3341.00           6731           5.00         2.00
  174.53        3341.25           6735           6.00         2.00
  174.56        3341.50           6739           7.00         4.80
  174.58        3341.75           6743           0.00         2.00
  174.61        3342.00           6746           6.00         2.00
  174.64        3342.25           6750           5.00         2.00
  174.67        3342.50           6754           3.00         2.00
  174.69        3342.75           6758           7.00         4.80
  174.72        3343.00           6761           7.00         4.80
  174.75        3343.25           6765           5.00         2.00
  174.78        3343.50           6769           2.00         2.00
  174.80        3343.75           6773           6.00         2.00
  174.83        3344.00           6776           0.00         2.00
  174.86        3344.25           6780           4.00         2.00
  174.88        3344.50           6784           0.00         2.00
  174.91        3344.75           6788           8.00         9.15
  174.94        3345.00           6791           7.00         4.80
  174.96        3345.25           6795           6.00         2.00
  174.99        3345.50           6799           4.00         2.00
  175.02        3345.75           6803           4.00         2.00
  175.05        3346.00           6806           1.00         2.00
  175.07        3346.25           6810           2.00         2.00
  175.10        3346.50           6814           3.00         2.00
  175.13        3346.75           6818           0.00         2.00
  175.16        3347.00           6821           6.00         2.00
  175.18        3347.25           6825           5.00         2.00
  175.21        3347.50           6829           0.00         2.00
  175.24        3347.75           6833           7.00         4.80
  175.26        3348.00           6836           3.00         2.00
  175.29        3348.25           6840           6.00         2.00
  175.32        3348.50           6844           5.00         2.00
  175.35        3348.75           6848           6.00         2.00
  175.37        3349.00           6851           7.00         4.80
  175.40        3349.25           6855           1.00         2.00
  175.43        3349.50           6859           5.00         2.00
  175.45        3349.75           6863           5.00         2.00
  175.48        3350.00           6867           7.00         4.80
  175.51        3350.25           6870           6.00         2.00
  175.53        3350.50           6874           0.00         2.00
  175.56        3350.75           6878           6.00         2.00
  175.59        3351.00           6882           4.00         2.00
HL scan finished at 02:56:13
end
