************************************************************
  HS Scan of (1) Internal mercury lamp
************************************************************
Integration time is 0.2294 seconds per sample
dh220317Tamanrasset 22.79-5.529 2.72091pr865
************************************************************
Dead Time -------------------------  2.8E-08 
Number of Cycles Used -------------  4 
Starting Wavelength (Angstroms) ---  2950 
Final Wavelength (Angstoms) -------  2984 
Wavelength Increment (Angstroms) --  .25 
Filter Wheel #1 Position ---------- (1) Ground quartz diffuser (ND=2.32)
Filter Wheel #2 Position ---------- (1) Neutral Density 0.494



************************************************************
HS scan start time = 03:24:42
Dark Count =  4.8 


Time (GMT)  Wavelength (Ang)  Step Number  Raw Counts  Counts/Second

  205.05        2950.00           1233           4.00         2.00
  205.11        2950.25           1236           0.00         2.00
  205.14        2950.50           1239           0.00         2.00
  205.17        2950.75           1242           8.00        13.95
  205.19        2951.00           1246           5.00         2.00
  205.22        2951.25           1249           8.00        13.95
  205.25        2951.50           1252           5.00         2.00
  205.27        2951.75           1256           6.00         5.23
  205.30        2952.00           1259           0.00         2.00
  205.33        2952.25           1262           7.00         9.59
  205.36        2952.50           1266           8.00        13.95
  205.38        2952.75           1269           1.00         2.00
  205.41        2953.00           1272           0.00         2.00
  205.44        2953.25           1276           6.00         5.23
  205.46        2953.50           1279           0.00         2.00
  205.49        2953.75           1282           0.00         2.00
  205.52        2954.00           1286           6.00         5.23
  205.54        2954.25           1289           0.00         2.00
  205.57        2954.50           1292           0.00         2.00
  205.60        2954.75           1295           0.00         2.00
  205.63        2955.00           1299           6.00         5.23
  205.65        2955.25           1302           7.00         9.59
  205.68        2955.50           1305           0.00         2.00
  205.71        2955.75           1309           6.00         5.23
  205.73        2956.00           1312           0.00         2.00
  205.76        2956.25           1315           8.00        13.95
  205.79        2956.50           1319           8.00        13.95
  205.82        2956.75           1322           3.00         2.00
  205.84        2957.00           1325           8.00        13.95
  205.87        2957.25           1329           8.00        13.95
  205.90        2957.50           1332           9.00        18.31
  205.92        2957.75           1335           9.00        18.31
  205.95        2958.00           1339           4.00         2.00
  205.98        2958.25           1342           3.00         2.00
  206.01        2958.50           1345           5.00         2.00
  206.03        2958.75           1348           3.00         2.00
  206.06        2959.00           1352           4.00         2.00
  206.09        2959.25           1355           7.00         9.59
  206.11        2959.50           1358           0.00         2.00
  206.14        2959.75           1362           3.00         2.00
  206.17        2960.00           1365           8.00        13.95
  206.20        2960.25           1368           0.00         2.00
  206.22        2960.50           1372           3.00         2.00
  206.25        2960.75           1375           7.00         9.59
  206.28        2961.00           1378           6.00         5.23
  206.30        2961.25           1382           4.00         2.00
  206.33        2961.50           1385           5.00         2.00
  206.36        2961.75           1388           0.00         2.00
  206.39        2962.00           1392           1.00         2.00
  206.41        2962.25           1395           8.00        13.95
  206.44        2962.50           1398           7.00         9.59
  206.47        2962.75           1402           5.00         2.00
  206.49        2963.00           1405           4.00         2.00
  206.52        2963.25           1408           3.00         2.00
  206.55        2963.50           1412           4.00         2.00
  206.58        2963.75           1415           0.00         2.00
  206.60        2964.00           1418           8.00        13.95
  206.63        2964.25           1422           0.00         2.00
  206.66        2964.50           1425           8.00        13.95
  206.68        2964.75           1428           2.00         2.00
  206.71        2965.00           1431           0.00         2.00
  206.74        2965.25           1435           4.00         2.00
  206.76        2965.50           1438           0.00         2.00
  206.79        2965.75           1441           8.00        13.95
  206.82        2966.00           1445           0.00         2.00
  206.85        2966.25           1448           0.00         2.00
  206.87        2966.50           1451           8.00        13.95
  206.90        2966.75           1455           8.00        13.95
  206.93        2967.00           1458           0.00         2.00
  206.96        2967.25           1461           7.00         9.59
  206.98        2967.50           1465           7.00         9.59
  207.01        2967.75           1468           5.00         2.00
  207.04        2968.00           1471           8.00        13.95
  207.06        2968.25           1475           8.00        13.95
  207.09        2968.50           1478           0.00         2.00
  207.12        2968.75           1481           7.00         9.59
  207.14        2969.00           1485           5.00         2.00
  207.17        2969.25           1488           5.00         2.00
  207.20        2969.50           1491           8.00        13.95
  207.23        2969.75           1495           0.00         2.00
  207.25        2970.00           1498           8.00        13.95
  207.28        2970.25           1501           8.00        13.95
  207.31        2970.50           1505           8.00        13.95
  207.34        2970.75           1508           5.00         2.00
  207.36        2971.00           1511           0.00         2.00
  207.39        2971.25           1515           0.00         2.00
  207.42        2971.50           1518           6.00         5.23
  207.44        2971.75           1521           0.00         2.00
  207.47        2972.00           1525           0.00         2.00
  207.50        2972.25           1528           1.00         2.00
  207.52        2972.50           1531           8.00        13.95
  207.55        2972.75           1535           0.00         2.00
  207.58        2973.00           1538           0.00         2.00
  207.61        2973.25           1541           1.00         2.00
  207.63        2973.50           1545           8.00        13.95
  207.66        2973.75           1548           0.00         2.00
  207.69        2974.00           1551           4.00         2.00
  207.71        2974.25           1555           0.00         2.00
  207.74        2974.50           1558           8.00        13.95
  207.77        2974.75           1561           8.00        13.95
  207.80        2975.00           1565           8.00        13.95
  207.82        2975.25           1568           3.00         2.00
  207.85        2975.50           1571           2.00         2.00
  207.88        2975.75           1575           8.00        13.95
  207.90        2976.00           1578           1.00         2.00
  207.93        2976.25           1581           7.00         9.59
  207.96        2976.50           1585           4.00         2.00
  207.98        2976.75           1588           6.00         5.23
  208.01        2977.00           1591           0.00         2.00
  208.04        2977.25           1595           0.00         2.00
  208.07        2977.50           1598           8.00        13.95
  208.09        2977.75           1601           5.00         2.00
  208.12        2978.00           1605           7.00         9.59
  208.15        2978.25           1608           2.00         2.00
  208.17        2978.50           1611           3.00         2.00
  208.20        2978.75           1615           0.00         2.00
  208.23        2979.00           1618           0.00         2.00
  208.26        2979.25           1621           0.00         2.00
  208.28        2979.50           1625           1.00         2.00
  208.31        2979.75           1628           5.00         2.00
  208.34        2980.00           1631           8.00        13.95
  208.36        2980.25           1635           8.00        13.95
  208.39        2980.50           1638           0.00         2.00
  208.42        2980.75           1641           8.00        13.95
  208.45        2981.00           1645           0.00         2.00
  208.47        2981.25           1648           5.00         2.00
  208.50        2981.50           1651           8.00        13.95
  208.53        2981.75           1655           4.00         2.00
  208.55        2982.00           1658           1.00         2.00
  208.58        2982.25           1661           8.00        13.95
  208.61        2982.50           1665           4.00         2.00
  208.64        2982.75           1668           2.00         2.00
  208.66        2983.00           1671           3.00         2.00
  208.69        2983.25           1675           8.00        13.95
  208.72        2983.50           1678           7.00         9.59
  208.74        2983.75           1681           0.00         2.00
  208.77        2984.00           1685           8.00        13.95
HS scan finished at 03:28:57
end
