************************************************************
  HS Scan of (1) Internal mercury lamp
************************************************************
Integration time is 0.2294 seconds per sample
dh060417Tamanrasset 22.79-5.529 3.011514pr865
************************************************************
Dead Time -------------------------  2.8E-08 
Number of Cycles Used -------------  4 
Starting Wavelength (Angstroms) ---  2950 
Final Wavelength (Angstoms) -------  2984 
Wavelength Increment (Angstroms) --  .25 
Filter Wheel #1 Position ---------- (1) Ground quartz diffuser (ND=2.32)
Filter Wheel #2 Position ---------- (1) Neutral Density 0.494



************************************************************
HS scan start time = 03:09:18
Dark Count =  4.1 


Time (GMT)  Wavelength (Ang)  Step Number  Raw Counts  Counts/Second

  189.65        2950.00           1233           5.00         3.92
  189.71        2950.25           1236           1.00         2.00
  189.74        2950.50           1239           2.00         2.00
  189.77        2950.75           1242           8.00        17.00
  189.80        2951.00           1246           6.00         8.28
  189.82        2951.25           1249           8.00        17.00
  189.85        2951.50           1252           2.00         2.00
  189.88        2951.75           1256           3.00         2.00
  189.90        2952.00           1259           2.00         2.00
  189.93        2952.25           1262           2.00         2.00
  189.96        2952.50           1266           8.00        17.00
  189.99        2952.75           1269           8.00        17.00
  190.01        2953.00           1272           0.00         2.00
  190.04        2953.25           1276           5.00         3.92
  190.07        2953.50           1279           2.00         2.00
  190.09        2953.75           1282           3.00         2.00
  190.12        2954.00           1286           8.00        17.00
  190.15        2954.25           1289           6.00         8.28
  190.17        2954.50           1292           2.00         2.00
  190.20        2954.75           1295           0.00         2.00
  190.23        2955.00           1299           5.00         3.92
  190.26        2955.25           1302           7.00        12.64
  190.28        2955.50           1305           2.00         2.00
  190.31        2955.75           1309           7.00        12.64
  190.34        2956.00           1312           1.00         2.00
  190.36        2956.25           1315           2.00         2.00
  190.39        2956.50           1319           7.00        12.64
  190.42        2956.75           1322           3.00         2.00
  190.45        2957.00           1325           0.00         2.00
  190.47        2957.25           1329           5.00         3.92
  190.50        2957.50           1332           4.00         2.00
  190.53        2957.75           1335           2.00         2.00
  190.55        2958.00           1339           3.00         2.00
  190.58        2958.25           1342           8.00        17.00
  190.61        2958.50           1345           2.00         2.00
  190.64        2958.75           1348           8.00        17.00
  190.66        2959.00           1352           8.00        17.00
  190.69        2959.25           1355           7.00        12.64
  190.72        2959.50           1358           4.00         2.00
  190.74        2959.75           1362           4.00         2.00
  190.77        2960.00           1365           0.00         2.00
  190.80        2960.25           1368           5.00         3.92
  190.83        2960.50           1372           7.00        12.64
  190.85        2960.75           1375           9.00        21.36
  190.88        2961.00           1378           5.00         3.92
  190.91        2961.25           1382           8.00        17.00
  190.93        2961.50           1385           8.00        17.00
  190.96        2961.75           1388           7.00        12.64
  190.99        2962.00           1392           6.00         8.28
  191.02        2962.25           1395           0.00         2.00
  191.04        2962.50           1398           5.00         3.92
  191.07        2962.75           1402           7.00        12.64
  191.10        2963.00           1405           4.00         2.00
  191.12        2963.25           1408           6.00         8.28
  191.15        2963.50           1412           6.00         8.28
  191.18        2963.75           1415           5.00         3.92
  191.21        2964.00           1418           8.00        17.00
  191.23        2964.25           1422           1.00         2.00
  191.26        2964.50           1425           6.00         8.28
  191.29        2964.75           1428           0.00         2.00
  191.31        2965.00           1431           0.00         2.00
  191.34        2965.25           1435           8.00        17.00
  191.37        2965.50           1438           5.00         3.92
  191.40        2965.75           1441           0.00         2.00
  191.42        2966.00           1445           4.00         2.00
  191.45        2966.25           1448           9.00        21.36
  191.48        2966.50           1451           2.00         2.00
  191.50        2966.75           1455           4.00         2.00
  191.53        2967.00           1458           6.00         8.28
  191.56        2967.25           1461           3.00         2.00
  191.59        2967.50           1465           5.00         3.92
  191.61        2967.75           1468           4.00         2.00
  191.64        2968.00           1471           5.00         3.92
  191.67        2968.25           1475           8.00        17.00
  191.69        2968.50           1478           5.00         3.92
  191.72        2968.75           1481           2.00         2.00
  191.75        2969.00           1485           2.00         2.00
  191.78        2969.25           1488           3.00         2.00
  191.80        2969.50           1491           8.00        17.00
  191.83        2969.75           1495           8.00        17.00
  191.86        2970.00           1498           0.00         2.00
  191.88        2970.25           1501           7.00        12.64
  191.91        2970.50           1505           5.00         3.92
  191.94        2970.75           1508           0.00         2.00
  191.97        2971.00           1511           8.00        17.00
  191.99        2971.25           1515           5.00         3.92
  192.02        2971.50           1518           6.00         8.28
  192.05        2971.75           1521           7.00        12.64
  192.07        2972.00           1525           3.00         2.00
  192.10        2972.25           1528           2.00         2.00
  192.13        2972.50           1531           8.00        17.00
  192.15        2972.75           1535           4.00         2.00
  192.18        2973.00           1538           4.00         2.00
  192.21        2973.25           1541           4.00         2.00
  192.24        2973.50           1545           4.00         2.00
  192.26        2973.75           1548           8.00        17.00
  192.29        2974.00           1551           5.00         3.92
  192.32        2974.25           1555           6.00         8.28
  192.34        2974.50           1558           5.00         3.92
  192.37        2974.75           1561           6.00         8.28
  192.40        2975.00           1565           3.00         2.00
  192.43        2975.25           1568           3.00         2.00
  192.45        2975.50           1571           6.00         8.28
  192.48        2975.75           1575           3.00         2.00
  192.51        2976.00           1578           5.00         3.92
  192.53        2976.25           1581           3.00         2.00
  192.56        2976.50           1585           5.00         3.92
  192.59        2976.75           1588           8.00        17.00
  192.61        2977.00           1591           6.00         8.28
  192.64        2977.25           1595           0.00         2.00
  192.67        2977.50           1598           4.00         2.00
  192.70        2977.75           1601           7.00        12.64
  192.72        2978.00           1605           7.00        12.64
  192.75        2978.25           1608           6.00         8.28
  192.78        2978.50           1611           5.00         3.92
  192.80        2978.75           1615           6.00         8.28
  192.83        2979.00           1618           1.00         2.00
  192.86        2979.25           1621           4.00         2.00
  192.89        2979.50           1625           5.00         3.92
  192.91        2979.75           1628           0.00         2.00
  192.94        2980.00           1631           5.00         3.92
  192.97        2980.25           1635           5.00         3.92
  192.99        2980.50           1638           5.00         3.92
  193.02        2980.75           1641           4.00         2.00
  193.05        2981.00           1645           5.00         3.92
  193.08        2981.25           1648           8.00        17.00
  193.10        2981.50           1651           8.00        17.00
  193.13        2981.75           1655           8.00        17.00
  193.16        2982.00           1658           1.00         2.00
  193.18        2982.25           1661           2.00         2.00
  193.21        2982.50           1665           3.00         2.00
  193.24        2982.75           1668           8.00        17.00
  193.27        2983.00           1671           2.00         2.00
  193.29        2983.25           1675           4.00         2.00
  193.32        2983.50           1678           8.00        17.00
  193.35        2983.75           1681           0.00         2.00
  193.37        2984.00           1685           6.00         8.28
HS scan finished at 03:13:34
end
