************************************************************
  HS Scan of (1) Internal mercury lamp
************************************************************
Integration time is 0.2294 seconds per sample
dh120417Tamanrasset 22.79-5.529 2.766795pr865
************************************************************
Dead Time -------------------------  2.8E-08 
Number of Cycles Used -------------  4 
Starting Wavelength (Angstroms) ---  2950 
Final Wavelength (Angstoms) -------  2984 
Wavelength Increment (Angstroms) --  .25 
Filter Wheel #1 Position ---------- (1) Ground quartz diffuser (ND=2.32)
Filter Wheel #2 Position ---------- (1) Neutral Density 0.494



************************************************************
HS scan start time = 03:04:17
Dark Count =  5.3 


Time (GMT)  Wavelength (Ang)  Step Number  Raw Counts  Counts/Second

  184.63        2950.00           1233           6.00         3.05
  184.70        2950.25           1236           8.00        11.77
  184.72        2950.50           1239           2.00         2.00
  184.75        2950.75           1242           8.00        11.77
  184.78        2951.00           1246           0.00         2.00
  184.81        2951.25           1249           0.00         2.00
  184.83        2951.50           1252           8.00        11.77
  184.86        2951.75           1256           8.00        11.77
  184.89        2952.00           1259           7.00         7.41
  184.92        2952.25           1262           0.00         2.00
  184.94        2952.50           1266           7.00         7.41
  184.97        2952.75           1269           8.00        11.77
  185.00        2953.00           1272           4.00         2.00
  185.02        2953.25           1276           7.00         7.41
  185.05        2953.50           1279           8.00        11.77
  185.08        2953.75           1282           5.00         2.00
  185.11        2954.00           1286           3.00         2.00
  185.13        2954.25           1289           0.00         2.00
  185.16        2954.50           1292           8.00        11.77
  185.19        2954.75           1295           0.00         2.00
  185.21        2955.00           1299           5.00         2.00
  185.24        2955.25           1302           4.00         2.00
  185.27        2955.50           1305           5.00         2.00
  185.30        2955.75           1309           0.00         2.00
  185.32        2956.00           1312           4.00         2.00
  185.35        2956.25           1315           8.00        11.77
  185.38        2956.50           1319           8.00        11.77
  185.41        2956.75           1322           5.00         2.00
  185.43        2957.00           1325           0.00         2.00
  185.46        2957.25           1329           6.00         3.05
  185.49        2957.50           1332           7.00         7.41
  185.51        2957.75           1335           0.00         2.00
  185.54        2958.00           1339           5.00         2.00
  185.57        2958.25           1342           3.00         2.00
  185.60        2958.50           1345           0.00         2.00
  185.62        2958.75           1348           1.00         2.00
  185.65        2959.00           1352           4.00         2.00
  185.68        2959.25           1355           6.00         3.05
  185.71        2959.50           1358           5.00         2.00
  185.73        2959.75           1362           2.00         2.00
  185.76        2960.00           1365           2.00         2.00
  185.79        2960.25           1368           0.00         2.00
  185.81        2960.50           1372           4.00         2.00
  185.84        2960.75           1375           8.00        11.77
  185.87        2961.00           1378           2.00         2.00
  185.90        2961.25           1382           0.00         2.00
  185.92        2961.50           1385           8.00        11.77
  185.95        2961.75           1388           7.00         7.41
  185.98        2962.00           1392           3.00         2.00
  186.00        2962.25           1395           6.00         3.05
  186.03        2962.50           1398           0.00         2.00
  186.06        2962.75           1402           0.00         2.00
  186.09        2963.00           1405           7.00         7.41
  186.11        2963.25           1408           0.00         2.00
  186.14        2963.50           1412           2.00         2.00
  186.17        2963.75           1415           0.00         2.00
  186.20        2964.00           1418           5.00         2.00
  186.22        2964.25           1422           7.00         7.41
  186.25        2964.50           1425           0.00         2.00
  186.28        2964.75           1428           4.00         2.00
  186.30        2965.00           1431           3.00         2.00
  186.33        2965.25           1435           8.00        11.77
  186.36        2965.50           1438           3.00         2.00
  186.39        2965.75           1441           0.00         2.00
  186.41        2966.00           1445           8.00        11.77
  186.44        2966.25           1448           7.00         7.41
  186.47        2966.50           1451           7.00         7.41
  186.49        2966.75           1455           3.00         2.00
  186.52        2967.00           1458           8.00        11.77
  186.55        2967.25           1461           8.00        11.77
  186.58        2967.50           1465           1.00         2.00
  186.60        2967.75           1468           8.00        11.77
  186.63        2968.00           1471           0.00         2.00
  186.66        2968.25           1475           4.00         2.00
  186.69        2968.50           1478           8.00        11.77
  186.71        2968.75           1481           0.00         2.00
  186.74        2969.00           1485           0.00         2.00
  186.77        2969.25           1488           8.00        11.77
  186.79        2969.50           1491           8.00        11.77
  186.82        2969.75           1495           0.00         2.00
  186.85        2970.00           1498           8.00        11.77
  186.88        2970.25           1501           4.00         2.00
  186.90        2970.50           1505           0.00         2.00
  186.93        2970.75           1508           8.00        11.77
  186.96        2971.00           1511           2.00         2.00
  186.99        2971.25           1515           8.00        11.77
  187.01        2971.50           1518           1.00         2.00
  187.04        2971.75           1521           4.00         2.00
  187.07        2972.00           1525           7.00         7.41
  187.09        2972.25           1528           7.00         7.41
  187.12        2972.50           1531           0.00         2.00
  187.15        2972.75           1535           0.00         2.00
  187.18        2973.00           1538           1.00         2.00
  187.20        2973.25           1541           8.00        11.77
  187.23        2973.50           1545           8.00        11.77
  187.26        2973.75           1548           8.00        11.77
  187.29        2974.00           1551           0.00         2.00
  187.31        2974.25           1555           0.00         2.00
  187.34        2974.50           1558           8.00        11.77
  187.37        2974.75           1561           0.00         2.00
  187.39        2975.00           1565           8.00        11.77
  187.42        2975.25           1568           2.00         2.00
  187.45        2975.50           1571           8.00        11.77
  187.48        2975.75           1575           3.00         2.00
  187.50        2976.00           1578           5.00         2.00
  187.53        2976.25           1581           2.00         2.00
  187.56        2976.50           1585           5.00         2.00
  187.59        2976.75           1588           8.00        11.77
  187.61        2977.00           1591           8.00        11.77
  187.64        2977.25           1595           4.00         2.00
  187.67        2977.50           1598           8.00        11.77
  187.69        2977.75           1601           0.00         2.00
  187.72        2978.00           1605           4.00         2.00
  187.75        2978.25           1608           2.00         2.00
  187.78        2978.50           1611           4.00         2.00
  187.80        2978.75           1615           8.00        11.77
  187.83        2979.00           1618           8.00        11.77
  187.86        2979.25           1621           8.00        11.77
  187.88        2979.50           1625           4.00         2.00
  187.91        2979.75           1628           7.00         7.41
  187.94        2980.00           1631           0.00         2.00
  187.97        2980.25           1635           0.00         2.00
  187.99        2980.50           1638           2.00         2.00
  188.02        2980.75           1641           8.00        11.77
  188.05        2981.00           1645           8.00        11.77
  188.08        2981.25           1648           4.00         2.00
  188.10        2981.50           1651           3.00         2.00
  188.13        2981.75           1655           2.00         2.00
  188.16        2982.00           1658           1.00         2.00
  188.18        2982.25           1661           8.00        11.77
  188.21        2982.50           1665           8.00        11.77
  188.24        2982.75           1668           6.00         3.05
  188.27        2983.00           1671           3.00         2.00
  188.29        2983.25           1675           4.00         2.00
  188.32        2983.50           1678           0.00         2.00
  188.35        2983.75           1681           0.00         2.00
  188.38        2984.00           1685           0.00         2.00
HS scan finished at 03:08:34
end
